File: Blackrock Challenge/data/XRD.csv
Date,Price
2018-01-02,665.071
2018-01-03,663.435
2018-01-04,653.187
2018-01-05,663.63
2018-01-08,668.155
2018-01-09,678.069
2018-01-10,683.839
2018-01-11,673.826
2018-01-12,674.999
2018-01-16,681.125
2018-01-17,681.1
2018-01-18,679.925
2018-01-19,687.031
2018-01-22,692.463
2018-01-23,696.798
2018-01-24,711.617
2018-01-25,716.066
2018-01-26,718.312
2018-01-29,719.66
2018-01-30,704.218
2018-01-31,706.263
2018-02-01,715.89
2018-02-02,687.638
2018-02-05,672.267
2018-02-06,665.173
2018-02-07,674.63
2018-02-08,639.16
2018-02-09,636.471
2018-02-12,645.823
2018-02-13,635.499
2018-02-14,661.13
2018-02-15,667.298
2018-02-16,655.208
2018-02-20,657.397
2018-02-21,651.935
2018-02-22,652.096
2018-02-23,665.737
2018-02-26,662.617
2018-02-27,664.816
2018-02-28,646.986
2018-03-01,633.512
2018-03-02,627.495
2018-03-05,627.713
2018-03-06,634.297
2018-03-07,640.561
2018-03-08,633.829
2018-03-09,647.607
2018-03-12,647.677
2018-03-13,645.905
2018-03-14,635.521
2018-03-15,637.549
2018-03-16,643.485
2018-03-19,643.691
2018-03-20,635.077
2018-03-21,632.174
2018-03-22,610.274
2018-03-23,599.646
2018-03-26,623.977
2018-03-27,599.516
2018-03-28,608.624
2018-03-29,608.516
2018-04-02,584.923
2018-04-03,602.191
2018-04-04,606.359
2018-04-05,611.899
2018-04-06,586.548
2018-04-09,589.517
2018-04-10,600.257
2018-04-11,600.361
2018-04-12,601.007
2018-04-13,595.906
2018-04-16,593.941
2018-04-17,609.968
2018-04-18,620.71
2018-04-19,600.713
2018-04-20,598.808
2018-04-23,603.125
2018-04-24,584.265
2018-04-25,595.487
2018-04-26,595.481
2018-04-27,598.123
2018-04-30,583.857
2018-05-01,601.517
2018-05-02,593.804
2018-05-03,607.595
2018-05-04,590.353
2018-05-07,579.254
2018-05-08,579.764
2018-05-09,581.548
2018-05-10,595.199
2018-05-11,596.327
2018-05-14,598.206
2018-05-15,579.236
2018-05-16,585.435
2018-05-17,593.323
2018-05-18,597.212
2018-05-21,607.405
2018-05-22,604.198
2018-05-23,598.1
2018-05-24,599.308
2018-05-25,592.161
2018-05-29,575.906
2018-05-30,585.739
2018-05-31,579.271
2018-06-01,599.449
2018-06-04,597.511
2018-06-05,598.751
2018-06-06,617.566
2018-06-07,614.866
2018-06-08,620.574
2018-06-11,625.883
2018-06-12,625.561
2018-06-13,627.929
2018-06-14,615.667
2018-06-15,614.156
2018-06-18,614.053
2018-06-19,615.351
2018-06-20,615.807
2018-06-21,602.422
2018-06-22,609.627
2018-06-25,592.114
2018-06-26,595.204
2018-06-27,594.48
2018-06-28,597.863
2018-06-29,606.209
2018-07-02,600.291
2018-07-03,609.943
2018-07-05,606.123
2018-07-06,612.085
2018-07-09,620.447
2018-07-10,629.321
2018-07-11,606.147
2018-07-12,611.412
2018-07-13,608.694
2018-07-16,609.589
2018-07-17,611.135
2018-07-18,621.695
2018-07-19,631.763
2018-07-20,627.619
2018-07-23,624.092
2018-07-24,639.712
2018-07-25,638.594
2018-07-26,641.948
2018-07-27,624.744
2018-07-30,616.329
2018-07-31,614.755
2018-08-01,612.139
2018-08-02,611.167
2018-08-03,618.301
2018-08-06,611.197
2018-08-07,615.171
2018-08-08,607.556
2018-08-09,610.621
2018-08-10,599.913
2018-08-13,596.833
2018-08-14,591.987
2018-08-15,582.763
2018-08-16,604.211
2018-08-17,600.535
2018-08-20,592.13
2018-08-21,587.434
2018-08-22,594.559
2018-08-23,595.935
2018-08-24,601.909
2018-08-27,608.342
2018-08-28,599.228
2018-08-29,609.422
2018-08-30,602.182
2018-08-31,621.714
2018-09-04,608.304
2018-09-05,625.344
2018-09-06,609.335
2018-09-07,623.14
2018-09-10,616.581
2018-09-11,626.464
2018-09-12,637.144
2018-09-13,644.477
2018-09-14,639.49
2018-09-17,645.725
2018-09-18,627.451
2018-09-19,638.813
2018-09-20,647.728
2018-09-21,640.306
2018-09-24,632.246
2018-09-25,635.525
2018-09-26,637.368
2018-09-27,631.495
2018-09-28,630.329
2018-10-01,641.273
2018-10-02,641.125
2018-10-03,648.495
2018-10-04,638.971
2018-10-05,639.353
2018-10-08,613.585
2018-10-09,628.29
2018-10-10,602.145
2018-10-11,591.809
2018-10-12,588.996
2018-10-15,590.561
2018-10-16,599.106
2018-10-17,602.59
2018-10-18,603.946
2018-10-19,589.803
2018-10-22,580.457
2018-10-23,575.506
2018-10-24,561.655
2018-10-25,566.555
2018-10-26,573.214
2018-10-29,565.151
2018-10-30,563.075
2018-10-31,581.153
2018-11-01,594.462
2018-11-02,601.892
2018-11-05,607.418
2018-11-06,602.817
2018-11-07,631.485
2018-11-08,621.631
2018-11-09,642.786
2018-11-12,633.039
2018-11-13,624.38
2018-11-14,613.512
2018-11-15,624.248
2018-11-16,626.35
2018-11-19,600.598
2018-11-20,612.57
2018-11-21,616.958
2018-11-23,625.715
2018-11-26,638.799
2018-11-27,632.426
2018-11-28,653.911
2018-11-29,652.473
2018-11-30,670.075
2018-12-03,679.151
2018-12-04,665.858
2018-12-06,644.247
2018-12-07,618.688
2018-12-10,621.528
2018-12-11,632.732
2018-12-12,642.948
2018-12-13,634.215
2018-12-14,619.369
2018-12-17,609.2
2018-12-18,610.232
2018-12-19,594.53
2018-12-20,585.1
2018-12-21,569.76
2018-12-24,562.625
2018-12-26,587.352
2018-12-27,591.626
2018-12-28,591.999
2018-12-31,599.651
2019-01-02,581.066
2019-01-03,542.953
2019-01-04,558.992
2019-01-07,567.336
2019-01-08,583.111
2019-01-09,606.91
2019-01-10,613.018
2019-01-11,600.444
2019-01-14,607.694
2019-01-15,617.169
2019-01-16,602.833
2019-01-17,621.234
2019-01-18,627.638
2019-01-22,616.013
2019-01-23,638.604
2019-01-24,626.836
2019-01-25,644.623
2019-01-28,643.559
2019-01-29,643.4
2019-01-30,668.265
2019-01-31,658.622
2019-02-01,679.241
2019-02-04,667.466
2019-02-05,682.308
2019-02-06,682.264
2019-02-07,683.559
2019-02-08,686.224
2019-02-11,701.334
2019-02-12,693.738
2019-02-13,691.428
2019-02-14,696.084
2019-02-15,691.927
2019-02-19,698.502
2019-02-20,696.672
2019-02-21,711.592
2019-02-22,699.419
2019-02-25,715.029
2019-02-26,702.958
2019-02-27,717.401
2019-02-28,718.924
2019-03-01,731.379
2019-03-04,716.012
2019-03-05,732.692
2019-03-06,712.617
2019-03-07,703.77
2019-03-08,707.99
2019-03-11,726.176
2019-03-12,719.823
2019-03-13,710.807
2019-03-14,720.089
2019-03-15,728.865
2019-03-18,738.332
2019-03-19,736.319
2019-03-20,733.087
2019-03-21,758.414
2019-03-22,726.388
2019-03-25,741.214
2019-03-26,751.424
2019-03-27,740.037
2019-03-28,733.733
2019-03-29,755.655
2019-04-01,767.704
2019-04-02,759.483
2019-04-03,772.664
2019-04-04,751.049
2019-04-05,757.897
2019-04-08,776.133
2019-04-09,758.83
2019-04-10,765.496
2019-04-11,779.637
2019-04-12,766.294
2019-04-15,785.262
2019-04-16,767.966
2019-04-17,735.501
2019-04-18,760.109
2019-04-22,771.58
2019-04-23,763.029
2019-04-24,760.93
2019-04-25,751.175
2019-04-26,759.747
2019-04-29,769.145
2019-04-30,765.246
2019-05-01,772.66
2019-05-02,783.526
2019-05-03,801.497
2019-05-06,796.183
2019-05-07,767.667
2019-05-08,777.023
2019-05-09,775.486
2019-05-10,749.262
2019-05-13,731.399
2019-05-14,756.514
2019-05-15,752.736
2019-05-16,763.891
2019-05-17,764.202
2019-05-20,743.169
2019-05-21,748.602
2019-05-22,760.965
2019-05-23,749.778
2019-05-24,751.765
2019-05-28,739.456
2019-05-29,748.62
2019-05-30,765.239
2019-05-31,750.11
2019-06-03,754.882
2019-06-04,773.662
2019-06-05,790.659
2019-06-06,794.701
2019-06-07,830.686
2019-06-10,848.188
2019-06-11,843.379
2019-06-12,849.595
2019-06-13,819.669
2019-06-14,809.834
2019-06-17,829.965
2019-06-18,822.198
2019-06-19,836.872
2019-06-20,861.507
2019-06-21,868.048
2019-06-24,857.131
2019-06-25,867.907
2019-06-26,853.776
2019-06-27,866.721
2019-06-28,878.857
2019-07-01,879.417
2019-07-02,880.558
2019-07-03,895.875
2019-07-05,901.816
2019-07-08,893.706
2019-07-09,883.238
2019-07-10,882.413
2019-07-11,874.945
2019-07-12,877.122
2019-07-15,850.878
2019-07-16,859.558
2019-07-17,840.546
2019-07-18,852.129
2019-07-19,854.924
2019-07-22,857.469
2019-07-23,849.438
2019-07-24,851.535
2019-07-25,820.972
2019-07-26,796.159
2019-07-29,794.138
2019-07-30,798.091
2019-07-31,791.148
2019-08-01,796.887
2019-08-02,752.258
2019-08-05,721.068
2019-08-06,738.26
2019-08-07,733.09
2019-08-08,746.188
2019-08-09,741.098
2019-08-12,721.379
2019-08-13,729.379
2019-08-14,694.289
2019-08-15,694.531
2019-08-16,698.896
2019-08-19,700.093
2019-08-20,697.787
2019-08-21,707.952
2019-08-22,692.612
2019-08-23,676.159
2019-08-26,685.348
2019-08-27,679.449
2019-08-28,676.708
2019-08-29,689.8
2019-08-30,678.26
2019-09-03,675.956
2019-09-04,689.225
2019-09-05,710.954
2019-09-06,714.329
2019-09-09,708.228
2019-09-10,738.054
2019-09-11,755.794
2019-09-12,749.459
2019-09-13,736.856
2019-09-16,752.137
2019-09-17,747.329
2019-09-18,731.24
2019-09-19,736.432
2019-09-20,735.516
2019-09-23,728.233
2019-09-24,719.704
2019-09-25,726.289
2019-09-26,729.157
2019-09-27,736.004
2019-09-30,744.584
2019-10-01,711.962
2019-10-02,696.953
2019-10-03,704.71
2019-10-04,706.87
2019-10-07,712.876
2019-10-08,691.962
2019-10-09,701.7
2019-10-10,694.674
2019-10-11,723.246
2019-10-14,711.847
2019-10-15,717.934
2019-10-16,691.934
2019-10-17,708.915
2019-10-18,706.799
2019-10-21,705.649
2019-10-22,705.533
2019-10-23,719.967
2019-10-24,724.358
2019-10-25,721.438
2019-10-28,740.929
2019-10-29,742.367
2019-10-30,734.528
2019-10-31,729.431
2019-11-01,741.681
2019-11-04,754.758
2019-11-05,737.82
2019-11-06,732.023
2019-11-07,753.713
2019-11-08,739.61
2019-11-11,726.574
2019-11-12,747.64
2019-11-13,748.001
2019-11-14,746.532
2019-11-15,752.467
2019-11-18,754.518
2019-11-19,762.488
2019-11-20,749.859
2019-11-21,739.197
2019-11-22,740.31
2019-11-25,740.115
2019-11-26,763.977
2019-11-27,746.964
2019-11-29,746.442
2019-12-02,756.569
2019-12-03,734.441
2019-12-04,761.835
2019-12-05,764.296
2019-12-06,791.095
2019-12-09,789.892
2019-12-10,785.74
2019-12-11,795.526
2019-12-12,807.347
2019-12-13,793.071
2019-12-16,822.05
2019-12-17,797.813
2019-12-18,811.021
2019-12-19,810.788
2019-12-20,826.344
2019-12-23,810.898
2019-12-24,810.764
2019-12-26,829.462
2019-12-27,832.681
2019-12-30,811.609
2019-12-31,825.811
2020-01-02,843.652
2020-01-03,819.294
2020-01-06,835.423
2020-01-07,832.754
2020-01-08,827.772
2020-01-09,839.353
2020-01-10,837.35
2020-01-13,845.548
2020-01-14,861.275
2020-01-15,859.866
2020-01-16,869.835
2020-01-17,872.059
2020-01-21,871.636
2020-01-22,871.916
2020-01-23,849.621
2020-01-24,856.312
2020-01-27,833.103
2020-01-28,837.056
2020-01-29,822.27
2020-01-30,801.52
2020-01-31,779.859
2020-02-03,787.63
2020-02-04,802.901
2020-02-05,819.315
2020-02-06,800.578
2020-02-07,806.666
2020-02-10,806.611
2020-02-11,820.619
2020-02-12,800.976
2020-02-13,792.351
2020-02-14,796.335
2020-02-18,785.516
2020-02-19,794.922
2020-02-20,792.739
2020-02-21,794.777
2020-02-24,766.647
2020-02-25,738.907
2020-02-26,721.924
2020-02-27,714.439
2020-02-28,729.207
2020-03-02,757.924
2020-03-03,755.889
2020-03-04,803.041
2020-03-05,772.625
2020-03-06,735.316
2020-03-09,700.713
2020-03-10,741.108
2020-03-11,697.947
2020-03-12,675.247
2020-03-13,695.778
2020-03-16,644.472
2020-03-17,704.013
2020-03-18,730.651
2020-03-19,750.765
2020-03-20,672.289
2020-03-23,625.07
2020-03-24,680.252
2020-03-25,665.668
2020-03-26,687.284
2020-03-27,682.466
2020-03-30,707.529
2020-03-31,725.658
2020-04-01,692.592
2020-04-02,691.795
2020-04-03,665.231
2020-04-06,737.533
2020-04-07,748.732
2020-04-08,765.92
2020-04-09,763.217
2020-04-13,729.196
2020-04-14,742.463
2020-04-15,720.597
2020-04-16,717.553
2020-04-17,751.019
2020-04-20,740.967
2020-04-21,703.445
2020-04-22,735.393
2020-04-23,731.698
2020-04-24,733.669
2020-04-27,768.465
2020-04-28,729.917
2020-04-29,777.401
2020-04-30,758.607
2020-05-01,726.41
2020-05-04,723.119
2020-05-05,731.117
2020-05-06,738.073
2020-05-07,766.933
2020-05-08,750.858
2020-05-11,753.021
2020-05-12,729.018
2020-05-13,712.668
2020-05-14,713.061
2020-05-15,733.001
2020-05-18,748.129
2020-05-19,739.165
2020-05-20,772.273
2020-05-21,760.494
2020-05-22,770.004
2020-05-26,793.506
2020-05-27,812.649
2020-05-28,829.677
2020-05-29,816.548
2020-06-01,833.327
2020-06-02,862.149
2020-06-03,872.544
2020-06-04,860.037
2020-06-05,881.143
2020-06-08,882.599
2020-06-09,845.686
2020-06-10,831.77
2020-06-11,780.918
2020-06-12,795.989
2020-06-15,802.33
2020-06-16,804.155
2020-06-17,811.288
2020-06-18,816.712
2020-06-19,837.141
2020-06-22,823.345
2020-06-23,817.158
2020-06-24,812.317
2020-06-25,805.387
2020-06-26,809.976
2020-06-29,826.963
2020-06-30,832.883
2020-07-01,829.727
2020-07-02,833.921
2020-07-06,854.509
2020-07-07,857.527
2020-07-08,839.802
2020-07-09,848.196
2020-07-10,854.981
2020-07-13,846.9
2020-07-14,882.376
2020-07-15,902.159
2020-07-16,893.721
2020-07-17,910.672
2020-07-20,900.437
2020-07-21,904.474
2020-07-22,901.489
2020-07-23,913.477
2020-07-24,889.554
2020-07-27,913.373
2020-07-28,905.659
2020-07-29,917.442
2020-07-30,916.029
2020-07-31,963.324
2020-08-03,944.647
2020-08-04,967.104
2020-08-05,980.251
2020-08-06,957.489
2020-08-07,977.16
2020-08-10,964.316
2020-08-11,987.26
2020-08-12,1004.88
2020-08-13,1001.93
2020-08-14,1003.08
2020-08-17,994.317
2020-08-18,997.353
2020-08-19,999.045
2020-08-20,981.618
2020-08-21,992.3
2020-08-24,986.758
2020-08-25,1011.83
2020-08-26,994.88
2020-08-27,1009.38
2020-08-28,1003.8
2020-08-31,1014.65
2020-09-01,1014.44
2020-09-02,1034.65
2020-09-03,989.323
2020-09-04,986.124
2020-09-08,975.828
2020-09-09,1005.41
2020-09-10,988.674
2020-09-11,1004.76
2020-09-14,1011.63
2020-09-15,1011.35
2020-09-16,1029.13
2020-09-17,1006.01
2020-09-18,995.453
2020-09-21,992.339
2020-09-22,1004.8
2020-09-23,989.432
2020-09-24,997.602
2020-09-25,997.516
2020-09-28,1009.87
2020-09-29,1007.08
2020-09-30,1004.72
2020-10-01,1014.89
2020-10-02,990.818
2020-10-05,1006.58
2020-10-06,1038.41
2020-10-07,1039.52
2020-10-08,1036.89
2020-10-09,1048.62
2020-10-12,1044.89
2020-10-13,1055.09
2020-10-14,1061.48
2020-10-15,1035.67
2020-10-16,1063.33
2020-10-19,1042.4
2020-10-20,1058.62
2020-10-21,1070.68
2020-10-22,1106.56
2020-10-23,1098.84
2020-10-26,1059.98
2020-10-27,1087.42
2020-10-28,1031.33
2020-10-29,1031.95
2020-10-30,1030.56
2020-11-02,1081.01
2020-11-03,1096.21
2020-11-04,1121.41
2020-11-05,1124.06
2020-11-06,1194.27
2020-11-09,1194.04
2020-11-10,1161.75
2020-11-11,1166.53
2020-11-12,1172.84
2020-11-13,1200
2020-11-16,1218.15
2020-11-17,1233.05
2020-11-18,1181.36
2020-11-19,1171.44
2020-11-20,1163.02
2020-11-23,1152.45
2020-11-24,1150.48
2020-11-25,1158.14
2020-11-27,1148.66
2020-11-30,1178.39
2020-12-01,1173.75
2020-12-02,1165.87
2020-12-03,1164.28
2020-12-04,1161.98
2020-12-07,1147.22
2020-12-08,1205.26
2020-12-09,1169.88
2020-12-10,1183.79
2020-12-11,1172.74
2020-12-14,1154.73
2020-12-15,1194.81
2020-12-16,1152.82
2020-12-17,1145.76
2020-12-18,1178.03
2020-12-21,1151.6
2020-12-22,1152
2020-12-23,1162.39
2020-12-24,1156.69
2020-12-28,1177.11
2020-12-29,1184.89
2020-12-30,1152.42
2020-12-31,1176.87
2021-01-04,1186.05
2021-01-05,1206.6
2021-01-06,1221.96
2021-01-07,1238.9
2021-01-08,1268.52
2021-01-11,1276.96
2021-01-12,1237.45
2021-01-13,1263.29
2021-01-14,1223.97
2021-01-15,1255.29
2021-01-19,1243.7
2021-01-20,1306.22
2021-01-21,1285.16
2021-01-22,1267.36
2021-01-25,1271.89
2021-01-26,1248.89
2021-01-27,1179.49
2021-01-28,1218.1
2021-01-29,1210.26
2021-02-01,1218.46
2021-02-02,1261.7
2021-02-03,1218.35
2021-02-04,1263.95
2021-02-05,1221.61
2021-02-08,1245.95
2021-02-09,1226.57
2021-02-10,1248.8
2021-02-11,1214.17
2021-02-12,1260.77
2021-02-16,1206.69
2021-02-17,1179.84
2021-02-18,1180.73
2021-02-19,1183.5
2021-02-22,1162.76
2021-02-23,1154.16
2021-02-24,1155.47
2021-02-25,1133.48
2021-02-26,1154.96
2021-03-01,1180.97
2021-03-02,1166.96
2021-03-03,1111.1
2021-03-04,1095.97
2021-03-05,1081.36
2021-03-08,1060.2
2021-03-09,1095.24
2021-03-10,1087.29
2021-03-11,1095.15
2021-03-12,1103.03
2021-03-15,1123.23
2021-03-16,1111.82
2021-03-17,1118.2
2021-03-18,1122.93
2021-03-19,1139.09
2021-03-22,1163.89
2021-03-23,1146.73
2021-03-24,1148.68
2021-03-25,1132.36
2021-03-26,1207.78
2021-03-29,1197.35
2021-03-30,1192.89
2021-03-31,1185.46
2021-04-01,1207.1
2021-04-05,1219.1
2021-04-06,1235.4
2021-04-07,1244.59
2021-04-08,1248.37
2021-04-09,1256.05
2021-04-12,1241.92
2021-04-13,1266.28
2021-04-14,1246.99
2021-04-15,1309.77
2021-04-16,1321.76
2021-04-19,1311.26
2021-04-20,1306.17
2021-04-21,1344.68
2021-04-22,1319.61
2021-04-23,1358.35
2021-04-26,1361.07
2021-04-27,1344.72
2021-04-28,1369.65
2021-04-29,1370.16
2021-04-30,1341.99
2021-05-03,1335.59
2021-05-04,1302.86
2021-05-05,1335.68
2021-05-06,1320.86
2021-05-07,1299.33
2021-05-10,1290.91
2021-05-11,1257.1
2021-05-12,1259.66
2021-05-13,1285.24
2021-05-14,1316.42
2021-05-17,1272.26
2021-05-18,1263.34
2021-05-19,1266.13
2021-05-20,1300.21
2021-05-21,1316.69
2021-05-24,1315.77
2021-05-25,1321.51
2021-05-26,1301.34
2021-05-27,1343.54
2021-05-28,1335.11
2021-06-01,1321.01
2021-06-02,1322.11
2021-06-03,1282.02
2021-06-04,1301.72
2021-06-07,1297.21
2021-06-08,1300.37
2021-06-09,1305.5
2021-06-10,1346.22
2021-06-11,1369.57
2021-06-14,1392.13
2021-06-15,1399.65
2021-06-16,1395.61
2021-06-17,1384.62
2021-06-18,1397.25
2021-06-21,1409.32
2021-06-22,1397.09
2021-06-23,1371.49
2021-06-24,1401.55
2021-06-25,1382.81
2021-06-28,1421.18
2021-06-29,1408.73
2021-06-30,1417.33
2021-07-01,1391.54
2021-07-02,1419.56
2021-07-06,1461.13
2021-07-07,1478.72
2021-07-08,1450.34
2021-07-09,1485.43
2021-07-12,1481.55
2021-07-13,1493.16
2021-07-14,1464.41
2021-07-15,1448.54
2021-07-16,1489.3
2021-07-19,1465.63
2021-07-20,1470.69
2021-07-21,1469.87
2021-07-22,1476.11
2021-07-23,1492.66
2021-07-26,1481.89
2021-07-27,1522.34
2021-07-28,1516.5
2021-07-29,1520.02
2021-07-30,1512.09
2021-08-02,1515.62
2021-08-03,1543.89
2021-08-04,1555.14
2021-08-05,1576.32
2021-08-06,1537.91
2021-08-09,1571.17
2021-08-10,1537.09
2021-08-11,1550.66
2021-08-12,1544.33
2021-08-13,1566.47
2021-08-16,1591.76
2021-08-17,1597.45
2021-08-18,1540.63
2021-08-19,1586.54
2021-08-20,1564.04
2021-08-23,1578.47
2021-08-24,1569.97
2021-08-25,1590.81
2021-08-26,1575.85
2021-08-27,1582.91
2021-08-30,1597.95
2021-08-31,1601.81
2021-09-01,1587.2
2021-09-02,1591.73
2021-09-03,1586.3
2021-09-07,1599.67
2021-09-08,1639.02
2021-09-09,1625.04
2021-09-10,1625.23
2021-09-13,1588.6
2021-09-14,1580.91
2021-09-15,1584.45
2021-09-16,1606.86
2021-09-17,1558.92
2021-09-20,1553.56
2021-09-21,1579.11
2021-09-22,1570.42
2021-09-23,1586.19
2021-09-24,1580.48
2021-09-27,1504.86
2021-09-28,1432.98
2021-09-29,1426.12
2021-09-30,1407.93
2021-10-01,1417.1
2021-10-04,1407.47
2021-10-05,1405.48
2021-10-06,1430.78
2021-10-07,1426.92
2021-10-08,1413.53
2021-10-11,1397.99
2021-10-12,1381.46
2021-10-13,1408.54
2021-10-14,1417.38
2021-10-15,1433.66
2021-10-18,1452.46
2021-10-19,1456.16
2021-10-20,1472.81
2021-10-21,1452.82
2021-10-22,1497.05
2021-10-25,1505.26
2021-10-26,1486.53
2021-10-27,1488.25
2021-10-28,1522
2021-10-29,1502.04
2021-11-01,1454.27
2021-11-02,1509.45
2021-11-03,1505.78
2021-11-04,1522.39
2021-11-05,1547.86
2021-11-08,1550.29
2021-11-09,1596.2
2021-11-10,1556.93
2021-11-11,1569.31
2021-11-12,1543.38
2021-11-15,1543.19
2021-11-16,1566.32
2021-11-17,1586.75
2021-11-18,1591.03
2021-11-19,1595.68
2021-11-22,1531.93
2021-11-23,1575.41
2021-11-24,1541.53
2021-11-26,1509.81
2021-11-29,1588.8
2021-11-30,1545.89
2021-12-01,1552.76
2021-12-02,1557.71
2021-12-03,1550.37
2021-12-06,1546.93
2021-12-07,1591.87
2021-12-08,1593.56
2021-12-09,1614.2
2021-12-10,1620.61
2021-12-13,1609.52
2021-12-14,1593.34
2021-12-15,1601.7
2021-12-16,1586.96
2021-12-17,1601.73
2021-12-20,1592.85
2021-12-21,1599.08
2021-12-22,1624.16
2021-12-23,1668.45
2021-12-27,1715.68
2021-12-28,1722.19
2021-12-29,1707.07
2021-12-30,1715.21
2021-12-31,1710.21
2022-01-03,1708.08
2022-01-04,1694.37
2022-01-05,1600.05
2022-01-06,1647.04
2022-01-07,1575.42
2022-01-10,1599
2022-01-11,1596.94
2022-01-12,1607.71
2022-01-13,1516.11
2022-01-14,1538.86
2022-01-18,1493.76
2022-01-19,1520.86
2022-01-20,1495.31
2022-01-21,1485.52
2022-01-24,1504.98
2022-01-25,1464.07
2022-01-26,1453.22
2022-01-27,1446.05
2022-01-28,1454.43
2022-01-31,1508.78
2022-02-01,1539.59
2022-02-02,1535.54
2022-02-03,1523.27
2022-02-04,1536.44
2022-02-07,1547.92
2022-02-08,1537.32
2022-02-09,1579.18
2022-02-10,1568.14
2022-02-11,1474.87
2022-02-14,1426.61
2022-02-15,1463.33
2022-02-16,1486.92
2022-02-17,1461.47
2022-02-18,1444.35
2022-02-22,1427.06
2022-02-23,1391.01
2022-02-24,1459.15
2022-02-25,1467.54
2022-02-28,1432.21
2022-03-01,1413.1
2022-03-02,1415.13
2022-03-03,1432.27
2022-03-04,1404.08
2022-03-07,1362.4
2022-03-08,1352.2
2022-03-09,1420.2
2022-03-10,1351.2
2022-03-11,1342.76
2022-03-14,1335.64
2022-03-15,1362.4
2022-03-16,1399.42
2022-03-17,1398.76
2022-03-18,1429.64
2022-03-21,1416.63
2022-03-22,1429.04
2022-03-23,1379.6
2022-03-24,1410.56
2022-03-25,1406.6
2022-03-28,1429.13
2022-03-29,1438.34
2022-03-30,1442
2022-03-31,1419.91
2022-04-01,1420.51
2022-04-04,1394.8
2022-04-05,1392.53
2022-04-06,1352.29
2022-04-07,1399.59
2022-04-08,1412.23
2022-04-11,1373.63
2022-04-12,1337.05
2022-04-13,1371.39
2022-04-14,1355.03
2022-04-18,1333.79
2022-04-19,1366.53
2022-04-20,1390.68
2022-04-21,1343.43
2022-04-22,1296.55
2022-04-25,1315.08
2022-04-26,1279.95
2022-04-27,1289.53
2022-04-28,1318.82
2022-04-29,1311.48
2022-05-02,1314.67
2022-05-03,1366.7
2022-05-04,1397.09
2022-05-05,1342.15
2022-05-06,1347.01
2022-05-09,1220.78
2022-05-10,1251.62
2022-05-11,1208.1
2022-05-12,1237.85
2022-05-13,1298.89
2022-05-16,1281.98
2022-05-17,1273.52
2022-05-18,1208.58
2022-05-19,1248.47
2022-05-20,1257.39
2022-05-23,1261.92
2022-05-24,1274.09
2022-05-25,1249.31
2022-05-26,1287.42
2022-05-27,1354.19
2022-05-31,1326.77
2022-06-01,1308.95
2022-06-02,1375.82
2022-06-03,1322.99
2022-06-06,1344.02
2022-06-07,1330.43
2022-06-08,1329.93
2022-06-09,1279.25
2022-06-10,1215.53
2022-06-13,1190.01
2022-06-14,1187.97
2022-06-15,1199.76
2022-06-16,1164.43
2022-06-17,1111.64
2022-06-21,1114.74
2022-06-22,1137.7
2022-06-23,1153.25
2022-06-24,1191.19
2022-06-27,1166.01
2022-06-28,1169.76
2022-06-29,1172.45
2022-06-30,1168.2
2022-07-01,1197.11
2022-07-05,1195.02
2022-07-06,1216.47
2022-07-07,1230.34
2022-07-08,1261.65
2022-07-11,1242.35
2022-07-12,1208.96
2022-07-13,1213.28
2022-07-14,1183.2
2022-07-15,1193.8
2022-07-18,1158.8
2022-07-19,1204.1
2022-07-20,1192.9
2022-07-21,1288.68
2022-07-22,1269.16
2022-07-25,1257.8
2022-07-26,1274.81
2022-07-27,1321.48
2022-07-28,1314.62
2022-07-29,1367.33
2022-08-01,1379.78
2022-08-02,1375.45
2022-08-03,1401.25
2022-08-04,1375.43
2022-08-05,1393.33
2022-08-08,1358.9
2022-08-09,1356.55
2022-08-10,1383.51
2022-08-11,1379.43
2022-08-12,1394.82
2022-08-15,1404.12
2022-08-16,1404.77
2022-08-17,1401.75
2022-08-18,1371.65
2022-08-19,1373.11
2022-08-22,1324.07
2022-08-23,1315.9
2022-08-24,1310.73
2022-08-25,1344.65
2022-08-26,1291.49
2022-08-29,1268.91
2022-08-30,1271.84
2022-08-31,1238.53
2022-09-01,1223.85
2022-09-02,1208.85
2022-09-06,1239.91
2022-09-07,1296.01
2022-09-08,1309.03
2022-09-09,1320.97
2022-09-12,1329.77
2022-09-13,1318.68
2022-09-14,1293.76
2022-09-15,1282.44
2022-09-16,1224.74
2022-09-19,1242.6
2022-09-20,1181.15
2022-09-21,1173.31
2022-09-22,1182.1
2022-09-23,1148.97
2022-09-26,1158.01
2022-09-27,1127.19
2022-09-28,1141.93
2022-09-29,1123.05
2022-09-30,1100.54
2022-10-03,1176.57
2022-10-04,1193.03
2022-10-05,1222.39
2022-10-06,1217.84
2022-10-07,1197.32
2022-10-10,1145.93
2022-10-11,1133.05
2022-10-12,1135.77
2022-10-13,1160.48
2022-10-14,1157.58
2022-10-17,1204.39
2022-10-18,1225.37
2022-10-19,1197.61
2022-10-20,1168.81
2022-10-21,1188.07
2022-10-24,1233.21
2022-10-25,1269.07
2022-10-26,1299.4
2022-10-27,1275.11
2022-10-28,1299.66
2022-10-31,1283.77
2022-11-01,1325.45
2022-11-02,1286.57
2022-11-03,1266.55
2022-11-04,1317.75
2022-11-07,1345.15
2022-11-08,1369.88
2022-11-09,1371.38
2022-11-10,1464.07
2022-11-11,1495.92
2022-11-14,1465.46
2022-11-15,1420.92
2022-11-16,1406.73
2022-11-17,1427.96
2022-11-18,1443.59
2022-11-21,1415.02
2022-11-22,1471.94
2022-11-23,1456.81
2022-11-25,1478.67
2022-11-28,1467.47
2022-11-29,1426.35
2022-11-30,1495.66
2022-12-01,1542.26
2022-12-02,1500.44
2022-12-05,1488.99
2022-12-06,1468.54
2022-12-07,1502.92
2022-12-08,1515.11
2022-12-09,1501.73
2022-12-12,1494.52
2022-12-13,1540.41
2022-12-14,1503.73
2022-12-15,1456.73
2022-12-16,1463.86
2022-12-19,1432.54
2022-12-20,1420.19
2022-12-21,1481.42
2022-12-22,1474.64
2022-12-23,1461.85
2022-12-27,1478.67
2022-12-28,1467.48
2022-12-29,1476.28
2022-12-30,1461.57